<?xml version="1.0" encoding="UTF-8"?>

<RequestGroup xmlns="http://hl7.org/fhir">
  <id value="Ejemplo6-Receta"/>
  <meta>
    <profile value="https://rme.hl7chile.cl/StructureDefinition/RecetaCl"/>
  </meta>
  <text>
    <status value="generated"/><div xmlns="http://www.w3.org/1999/xhtml"><p><b>Generated Narrative: RequestGroup</b></p><div style="display: inline-block; background-color: #d9e0e7; padding: 6px; margin: 4px; border: 1px solid #8da1b4; border-radius: 5px; line-height: 60%"><p style="margin-bottom: 0px">Resource RequestGroup "Ejemplo6-Receta" </p><p style="margin-bottom: 0px">Profile: <a href="StructureDefinition-RecetaCl.html">CL Receta</a></p></div><p><b>basedOn</b>: </p><ul><li><a name="Inline-Instance-para-ejemplo6"> </a></li><li><a name="Inline-Instance-para-ejemplo7"> </a></li></ul><blockquote><div style="display: inline-block; background-color: #d9e0e7; padding: 6px; margin: 4px; border: 1px solid #8da1b4; border-radius: 5px; line-height: 60%"><p style="margin-bottom: 0px">Resource MedicationRequest "Inline-Instance-para-ejemplo6" </p><p style="margin-bottom: 0px">Profile: <a href="StructureDefinition-RecetaPrescripcionCl.html">CL Prescripción</a></p></div><p><b>Identificación de un medicamento bajo su marca comercial</b>: <a href="Medication-1965501000167112.html">Medication/1965501000167112: enalten 10 mg comprimido (Saval)</a></p><p><b>status</b>: active</p><p><b>intent</b>: order</p><p><b>category</b>: community <span style="background: LightGoldenRodYellow; margin: 4px; border: 1px solid khaki"> (<a href="http://terminology.hl7.org/4.0.0/CodeSystem-medicationrequest-category.html">MedicationRequest Category Codes</a>#community)</span></p><p><b>medication</b>: <a href="Medication-1669781000167113.html">Medication/1669781000167113: enalapril 10 mg comprimido</a></p><p><b>subject</b>: <a href="Patient-Paciente1.html">Patient/Paciente1: María Carmen de los Angeles Del río</a> " DEL RIO"</p><p><b>requester</b>: <a href="Practitioner-3309267.html">Practitioner/3309267: Maria Carmen De los angeles Del rio Gonzalez</a> " DEL RIO GONZALEZ"</p><p><b>groupIdentifier</b>: id: bcg7g47e8geabbd2590z</p><p><b>courseOfTherapyType</b>: Terapia continua a largo plazo <span style="background: LightGoldenRodYellow; margin: 4px; border: 1px solid khaki"> (<a href="CodeSystem-CSCodificacionPatron.html">Patrón de la Prescripción</a>#continuous)</span></p><h3>DispenseRequests</h3><table class="grid"><tr><td>-</td><td><b>ValidityPeriod</b></td></tr><tr><td>*</td><td>2022-08-19 --&gt; 2023-08-19</td></tr></table></blockquote><blockquote><div style="display: inline-block; background-color: #d9e0e7; padding: 6px; margin: 4px; border: 1px solid #8da1b4; border-radius: 5px; line-height: 60%"><p style="margin-bottom: 0px">Resource MedicationRequest "Inline-Instance-para-ejemplo7" </p><p style="margin-bottom: 0px">Profile: <a href="StructureDefinition-RecetaPrescripcionCl.html">CL Prescripción</a></p></div><p><b>Identificación de un medicamento bajo su marca comercial</b>: <a href="Medication-2034171000167114.html">Medication/2034171000167114: hidroronol T comprimido (ITF - Labomed)</a></p><p><b>status</b>: active</p><p><b>intent</b>: order</p><p><b>category</b>: community <span style="background: LightGoldenRodYellow; margin: 4px; border: 1px solid khaki"> (<a href="http://terminology.hl7.org/4.0.0/CodeSystem-medicationrequest-category.html">MedicationRequest Category Codes</a>#community)</span></p><p><b>medication</b>: <a href="Medication-1667741000167112.html">Medication/1667741000167112: hidroclorotiazida 25 mg + triamtereno 50 mg comprimido</a></p><p><b>subject</b>: <a href="Patient-Paciente1.html">Patient/Paciente1: María Carmen de los Angeles Del río</a> " DEL RIO"</p><p><b>requester</b>: <a href="Practitioner-3309267.html">Practitioner/3309267: Maria Carmen De los angeles Del rio Gonzalez</a> " DEL RIO GONZALEZ"</p><p><b>groupIdentifier</b>: id: bcg7g47e8geabbd2590z</p><p><b>courseOfTherapyType</b>: Terapia continua a largo plazo <span style="background: LightGoldenRodYellow; margin: 4px; border: 1px solid khaki"> (<a href="CodeSystem-CSCodificacionPatron.html">Patrón de la Prescripción</a>#continuous)</span></p><p><b>note</b>: Tomar en las mañanas</p><h3>DispenseRequests</h3><table class="grid"><tr><td>-</td><td><b>ValidityPeriod</b></td></tr><tr><td>*</td><td>2022-08-19 --&gt; 2023-08-19</td></tr></table></blockquote><p><b>groupIdentifier</b>: id: bcg7g47e8geabbd2590z</p><p><b>status</b>: active</p><p><b>intent</b>: order</p><p><b>subject</b>: <a href="Patient-Paciente1.html">Patient/Paciente1: María Carmen de los Angeles Del río</a> " DEL RIO"</p><p><b>authoredOn</b>: 2022-08-19 07:05:55+0000</p></div>
  </text>
  <contained>
    <MedicationRequest>
      <id value="Inline-Instance-para-ejemplo6"/>
      <meta>
        <profile value="https://rme.hl7chile.cl/StructureDefinition/RecetaPrescripcionCl"/>
      </meta>
      <extension url="https://rme.hl7chile.cl/StructureDefinition/ProdComercial">
        <valueReference>
          <reference value="Medication/1965501000167112"/>
          <display value="enalten 10 mg comprimido (Saval)"/>
        </valueReference>
      </extension>
      <status value="active"/>
      <intent value="order"/>
      <category>
        <coding>
          <system value="http://terminology.hl7.org/CodeSystem/medicationrequest-category"/>
          <code value="community"/>
          <display value="community"/>
        </coding>
      </category>
      <medicationReference>
        <reference value="Medication/1669781000167113"/>
        <display value="enalapril 10 mg comprimido"/>
      </medicationReference>
      <subject>
        <reference value="Patient/Paciente1"/>
        <display value="María Carmen de los Angeles Del río"/>
      </subject>
      <requester>
        <reference value="Practitioner/3309267"/>
        <display value="Maria Carmen De los angeles Del rio Gonzalez"/>
      </requester>
      <groupIdentifier>
        <value value="bcg7g47e8geabbd2590z"/>
      </groupIdentifier>
      <courseOfTherapyType>
        <coding>
          <system value="https://rme.hl7chile.cl/CodeSystem/CSCodificacionPatron"/>
          <code value="continuous"/>
          <display value="Terapia continua a largo plazo"/>
        </coding>
      </courseOfTherapyType>
      <dosageInstruction>
        <sequence value="1"/>
        <text value="Administrar 1 Comprimido cada 1 día por 1 año"/>
        <timing>
          <repeat>
            <boundsDuration>
              <value value="1"/>
              <system value="http://unitsofmeasure.org"/>
              <code value="a"/>
            </boundsDuration>
            <frequency value="1"/>
            <period value="1"/>
            <periodUnit value="d"/>
          </repeat>
        </timing>
        <route>
          <coding>
            <system value="https://rme.hl7chile.cl/CodeSystem/CSViasAdmin"/>
            <code value="26643006"/>
            <display value="vía Oral route (calificador)"/>
          </coding>
        </route>
        <method>
          <coding>
            <system value="https://rme.hl7chile.cl/CodeSystem/CSMetodos"/>
            <code value="738995006"/>
            <display value="Tragar (método de administración)"/>
          </coding>
        </method>
        <doseAndRate>
          <doseQuantity>
            <value value="1"/>
            <unit value="Comprimido"/>
            <system value="https://rme.hl7chile.cl/CodeSystem/CSUnidadAsistencial"/>
            <code value="comprimido"/>
          </doseQuantity>
        </doseAndRate>
      </dosageInstruction>
      <dispenseRequest>
        <validityPeriod>
          <start value="2022-08-19"/>
          <end value="2023-08-19"/>
        </validityPeriod>
      </dispenseRequest>
    </MedicationRequest>
  </contained>
  <contained>
    <MedicationRequest>
      <id value="Inline-Instance-para-ejemplo7"/>
      <meta>
        <profile value="https://rme.hl7chile.cl/StructureDefinition/RecetaPrescripcionCl"/>
      </meta>
      <extension url="https://rme.hl7chile.cl/StructureDefinition/ProdComercial">
        <valueReference>
          <reference value="Medication/2034171000167114"/>
          <display value="hidroronol T comprimido (ITF - Labomed)"/>
        </valueReference>
      </extension>
      <status value="active"/>
      <intent value="order"/>
      <category>
        <coding>
          <system value="http://terminology.hl7.org/CodeSystem/medicationrequest-category"/>
          <code value="community"/>
          <display value="community"/>
        </coding>
      </category>
      <medicationReference>
        <reference value="Medication/1667741000167112"/>
        <display value="hidroclorotiazida 25 mg + triamtereno 50 mg comprimido"/>
      </medicationReference>
      <subject>
        <reference value="Patient/Paciente1"/>
        <display value="María Carmen de los Angeles Del río"/>
      </subject>
      <requester>
        <reference value="Practitioner/3309267"/>
        <display value="Maria Carmen De los angeles Del rio Gonzalez"/>
      </requester>
      <groupIdentifier>
        <value value="bcg7g47e8geabbd2590z"/>
      </groupIdentifier>
      <courseOfTherapyType>
        <coding>
          <system value="https://rme.hl7chile.cl/CodeSystem/CSCodificacionPatron"/>
          <code value="continuous"/>
          <display value="Terapia continua a largo plazo"/>
        </coding>
      </courseOfTherapyType>
      <note>
        <text value="Tomar en las mañanas"/>
      </note>
      <dosageInstruction>
        <sequence value="1"/>
        <text value="Administrar 1 Comprimido cada 1 día por 1 año"/>
        <timing>
          <repeat>
            <boundsDuration>
              <value value="1"/>
              <system value="http://unitsofmeasure.org"/>
              <code value="a"/>
            </boundsDuration>
            <frequency value="1"/>
            <period value="1"/>
            <periodUnit value="d"/>
          </repeat>
        </timing>
        <route>
          <coding>
            <system value="https://rme.hl7chile.cl/CodeSystem/CSViasAdmin"/>
            <code value="26643006"/>
            <display value="vía Oral route (calificador)"/>
          </coding>
        </route>
        <method>
          <coding>
            <system value="https://rme.hl7chile.cl/CodeSystem/CSMetodos"/>
            <code value="738995006"/>
            <display value="Tragar (método de administración)"/>
          </coding>
        </method>
        <doseAndRate>
          <doseQuantity>
            <value value="1"/>
            <unit value="Comprimido"/>
            <system value="https://rme.hl7chile.cl/CodeSystem/CSUnidadAsistencial"/>
            <code value="comprimido"/>
          </doseQuantity>
        </doseAndRate>
      </dosageInstruction>
      <dispenseRequest>
        <validityPeriod>
          <start value="2022-08-19"/>
          <end value="2023-08-19"/>
        </validityPeriod>
      </dispenseRequest>
    </MedicationRequest>
  </contained>
  <basedOn>
    <reference value="#Inline-Instance-para-ejemplo6"/>
  </basedOn>
  <basedOn>
    <reference value="#Inline-Instance-para-ejemplo7"/>
  </basedOn>
  <groupIdentifier>
    <value value="bcg7g47e8geabbd2590z"/>
  </groupIdentifier>
  <status value="active"/>
  <intent value="order"/>
  <subject>
    <reference value="Patient/Paciente1"/>
    <display value="María Carmen de los Angeles Del río"/>
  </subject>
  <authoredOn value="2022-08-19T19:05:55.961Z"/>
</RequestGroup>